Folder: PNAS-paper-V2/Fig.2-XPS

Note: README.md
# Data for: Adsorption and Reaction of SO₂, H₂S, and N₂O on Graphene/Silicon(111)

This repository contains the data associated with the following publication:

**Adsorption and Reaction of SO₂, H₂S, and N₂O on Graphene/Silicon(111): Successful Quest for a Metal-Free Catalyst – Theory and Experiment**

## Authors

Abdolvahab Seif¹²,  
Thomas Stach³,  
Trung T. Pham⁴,  
Md Arif Uddin³,  
Jean-François Colomer⁴,  
Robert Sporken⁴,  
Alberto Ambrosetti¹,  
Pier Luigi Silvestrelli¹,  
**Uwe Burghaus³***

---

## Affiliations

¹ Dipartimento di Fisica e Astronomia,  
Università di Padova,  
Via Marzolo 8, 35131 Padova, Italy  

² Department of Chemistry,  
University of Turin,  
Via Pietro Giuria 7, 10125 Turin, Italy  

³ Department of Chemistry and Biochemistry,  
North Dakota State University (NDSU),  
1311 Albrecht Blvd, Sugihara Hall,  
Fargo, ND 58102, USA  

⁴ Namur Institute of Structured Matter (NISM),  
Department of Physics, University of Namur,  
61 Rue de Bruxelles, B-5000 Namur, Belgium  

---

## Corresponding Author

**Uwe Burghaus**  
Email: uwe.burghaus@ndsu.edu

---

## Repository Contents

This repository provides experimental and theoretical data supporting the results and conclusions of the publication.  
Details on file structure and data descriptions are provided within the respective directories.

---

## Usage and Citation

If you use data from this repository, please cite the corresponding publication listed above.

File: Fig2 XPS AP graphene.csv
_;;;;;;;;;
Axis;Energy;Elements=;191;;;;;;
Axis;Position;Elements=;1;;;;;;
Axis;X;Elements=;1;;;;;;
Axis;Y;Elements=;1;;;;;;
;;;;;;;;;
C:\Mac\Home\Documents\Avantage\GonSi111-anneal in UHV\Data Grid.DATA\C1s Scan.VGD;;;;;;;;;
;;;;;;;;;
;;;;;;;;;
;Position (Pos)\;Pt #003;;;;;;;
;X (X)\µm;46616.6;;;;;;;
;Y (Y)\µm;27642.1;;;;;;;
Binding Energy (E);;;;Fitted envelope;Fitted Peak C sp2;Fitted Peak CO;Fitted Peak C sp3;Fitted Peak SiC;Backgnd.
eV;;Counts / s;;Counts / s;Counts / s;Counts / s;Counts / s;Counts / s;Counts / s
298.080;;2198.08;;2198.08;0.00000;0.00000;0.00000;0.00000;0.00000
297.880;;2221.82;;2221.82;0.00000;0.00000;0.00000;0.00000;0.00000
297.680;;2217.05;;2217.05;0.00000;0.00000;0.00000;0.00000;0.00000
297.480;;2261.54;;2261.54;0.00000;0.00000;0.00000;0.00000;0.00000
297.280;;2294.19;;2294.19;0.00000;0.00000;0.00000;0.00000;0.00000
297.080;;2288.35;;2288.35;0.00000;0.00000;0.00000;0.00000;0.00000
296.880;;2151.99;;2151.99;0.00000;0.00000;0.00000;0.00000;0.00000
296.680;;2208.19;;2208.19;0.00000;0.00000;0.00000;0.00000;0.00000
296.480;;2221.88;;2221.89;0.00000;0.00000;0.00000;0.00000;0.00000
296.280;;2244.03;;2244.04;0.00000;0.00000;0.00000;0.00000;0.00000
296.080;;2265.91;;2265.92;0.00000;0.00000;0.00000;0.00000;0.00000
295.880;;2246.35;;2246.37;0.00000;0.00000;0.00000;0.00000;0.00000
295.680;;2276.82;;2276.85;0.00000;0.00000;0.00000;0.00000;0.00000
295.480;;2199.26;;2199.30;0.00000;0.00000;0.00000;0.00000;0.00000
295.280;;2406.21;;2406.29;0.00000;0.00000;0.00000;0.00000;0.00000
295.080;;2292.03;;2292.16;0.00000;0.00000;0.00000;0.00000;0.00000
294.880;;2237.43;;2237.64;0.00000;0.00000;0.00000;0.00000;0.00000
294.680;;2304.89;;2305.21;0.00000;0.00000;0.00000;0.00000;0.00000
294.480;;2267.32;;2267.80;0.00000;0.00000;0.00000;0.00000;0.00000
294.280;;2323.62;;2324.30;0.00000;0.00000;0.00000;0.00000;0.00000
294.080;;2362.19;;2363.14;0.00000;0.00000;0.00000;0.00000;0.00000
293.880;;2271.39;;2272.65;0.00000;0.00000;0.00000;0.00000;0.00000
293.680;;2244.25;;2245.90;0.00000;0.00000;0.00000;0.00000;0.00000
293.480;;2198.71;;2200.80;0.00000;0.00000;0.00000;0.00000;0.00000
293.280;;2314.07;;2316.63;0.00000;0.00000;0.00000;0.00000;0.00000
293.080;;2273.76;;2276.84;0.00000;0.00000;0.00000;0.00000;0.00000
292.880;;2328.66;;2332.28;0.00000;0.00000;0.00000;0.00000;0.00000
292.680;;2303.72;;2307.89;0.00000;0.00000;0.00000;0.00000;0.00000
292.480;;2389.69;;2394.41;0.00000;0.00000;0.00000;0.00000;0.00000
292.280;;2250.29;;2255.57;0.00000;0.00000;0.00000;0.00000;0.00000
292.080;;2320.40;;2326.25;0.00000;0.00000;0.00000;0.00000;0.00000
291.880;;2419.52;;2425.93;0.00000;0.00000;0.00000;0.00000;0.00000
291.680;;2397.63;;2404.63;0.00000;0.00000;0.00000;0.00000;0.00000
291.480;;2366.65;;2374.25;0.00000;0.00000;0.00000;0.00000;0.00000
291.280;;2302.42;;2355.51;2347.24;2355.51;2347.24;2347.24;2347.24
291.080;;2428.37;;2356.11;2347.12;2356.11;2347.12;2347.12;2347.12
290.880;;2406.08;;2356.67;2346.89;2356.67;2346.89;2346.89;2346.89
290.680;;2376.14;;2357.28;2346.59;2357.28;2346.59;2346.59;2346.59
290.480;;2392.21;;2358.09;2346.37;2358.09;2346.37;2346.37;2346.37
290.280;;2333.04;;2359.15;2346.24;2359.15;2346.24;2346.24;2346.24
290.080;;2422.54;;2360.40;2346.08;2360.40;2346.08;2346.08;2346.08
289.880;;2349.37;;2361.88;2345.89;2361.88;2345.89;2345.89;2345.89
289.680;;2402.59;;2363.63;2345.63;2363.63;2345.63;2345.63;2345.63
289.480;;2329.12;;2365.90;2345.43;2365.90;2345.43;2345.43;2345.43
289.280;;2348.83;;2368.82;2345.28;2368.82;2345.28;2345.28;2345.28
289.080;;2348.87;;2372.61;2345.18;2372.61;2345.18;2345.18;2345.18
288.880;;2391.34;;2377.55;2345.13;2377.54;2345.13;2345.13;2345.13
288.680;;2390.98;;2383.89;2345.00;2383.89;2345.00;2345.00;2345.00
288.480;;2468.03;;2392.00;2344.64;2391.99;2344.65;2344.64;2344.64
288.280;;2445.68;;2402.58;2344.14;2402.54;2344.18;2344.14;2344.14
288.080;;2396.41;;2416.60;2343.66;2416.40;2343.86;2343.66;2343.66
287.880;;2347.63;;2435.16;2343.33;2434.46;2344.04;2343.33;2343.33
287.680;;2417.29;;2459.26;2342.98;2457.25;2345.00;2342.98;2342.98
287.480;;2556.92;;2489.64;2342.44;2485.10;2346.98;2342.44;2342.44
287.280;;2484.96;;2526.56;2341.71;2518.18;2350.09;2341.71;2341.71
287.080;;2546.14;;2569.38;2340.79;2556.12;2354.04;2340.79;2340.79
286.880;;2581.39;;2616.91;2339.77;2597.93;2358.75;2339.77;2339.77
286.680;;2597.02;;2668.01;2338.63;2641.75;2364.86;2338.65;2338.63
286.480;;2726.32;;2722.47;2337.25;2684.92;2374.55;2337.51;2337.25
286.280;;2817.60;;2783.49;2335.61;2724.34;2393.48;2336.90;2335.61
286.080;;2892.21;;2861.84;2333.60;2756.67;2435.34;2337.03;2333.60
285.880;;2939.73;;2981.05;2331.23;2778.89;2527.60;2336.93;2331.20
285.680;;3262.39;;3173.48;2328.68;2788.41;2705.09;2335.60;2328.10
285.480;;3458.35;;3450.53;2332.43;2783.93;2973.36;2333.45;2324.21
285.280;;3774.10;;3789.12;2394.37;2765.27;3256.60;2330.77;2319.30
285.080;;4374.50;;4285.59;2753.98;2732.96;3409.16;2327.21;2312.58
284.880;;5294.56;;5404.20;3972.53;2688.02;3329.68;2322.05;2302.70
284.680;;7420.32;;7496.13;6351.73;2631.01;3060.88;2314.08;2287.19
284.480;;9338.89;;9449.85;8630.23;2563.61;2744.77;2304.69;2264.48
284.280;;9423.51;;9232.83;8652.04;2491.44;2496.08;2304.81;2237.18
284.080;;6951.53;;6850.26;6371.71;2424.08;2344.94;2346.61;2212.36
283.880;;4358.22;;4468.28;3930.90;2368.92;2267.57;2487.82;2195.64
283.680;;3437.50;;3382.26;2652.30;2326.43;2230.60;2732.42;2186.50
283.480;;3077.86;;3107.40;2261.84;2293.40;2211.51;2884.81;2181.39
283.280;;2932.94;;2875.02;2186.77;2267.15;2199.53;2755.05;2177.83
283.080;;2560.52;;2583.56;2175.97;2246.66;2190.83;2496.10;2175.33
282.880;;2376.62;;2389.37;2173.80;2231.07;2184.06;2321.75;2173.77
282.680;;2288.11;;2298.44;2172.89;2219.40;2178.86;2245.96;2172.89
282.480;;2277.73;;2256.09;2172.33;2210.58;2175.22;2214.95;2172.33
282.280;;2273.23;;2233.12;2171.91;2203.83;2173.04;2200.08;2171.91
282.080;;2191.87;;2219.13;2171.64;2198.68;2171.98;2191.75;2171.64
281.880;;2234.43;;2209.94;2171.49;2194.73;2171.57;2186.62;2171.49
281.680;;2124.59;;2203.46;2171.41;2191.63;2171.42;2183.22;2171.41
281.480;;2187.66;;2198.61;2171.32;2189.13;2171.32;2180.80;2171.32
281.280;;2180.92;;2194.82;2171.28;2187.11;2171.28;2178.99;2171.28
281.080;;2178.35;;2198.51;0.00000;0.00000;0.00000;0.00000;0.00000
280.880;;2187.16;;2203.70;0.00000;0.00000;0.00000;0.00000;0.00000
280.680;;2097.17;;2110.30;0.00000;0.00000;0.00000;0.00000;0.00000
280.480;;2153.73;;2164.66;0.00000;0.00000;0.00000;0.00000;0.00000
280.280;;2124.40;;2134.14;0.00000;0.00000;0.00000;0.00000;0.00000
280.080;;2134.45;;2143.37;0.00000;0.00000;0.00000;0.00000;0.00000
279.880;;2107.14;;2115.35;0.00000;0.00000;0.00000;0.00000;0.00000
279.680;;2058.52;;2066.07;0.00000;0.00000;0.00000;0.00000;0.00000
279.480;;2110.36;;2117.30;0.00000;0.00000;0.00000;0.00000;0.00000
279.280;;2163.76;;2170.12;0.00000;0.00000;0.00000;0.00000;0.00000
279.080;;2187.25;;2193.05;0.00000;0.00000;0.00000;0.00000;0.00000

File: Fig2 XPS LP graphene.csv
_;;;;;;;;;;;
Axis;Energy;Elements=;191;;;;;;;;
Axis;Position;Elements=;1;;;;;;;;
Axis;X;Elements=;1;;;;;;;;
Axis;Y;Elements=;1;;;;;;;;
;;;;;;;;;;;
C:\Mac\Home\Documents\Avantage\Old graphene\G-Si111-front side\Data Grid 3.DATA\C1s Scan.VGD;;;;;;;;;;;
;;;;;;;;;;;
;;;;;;;;;;;
;Position (Pos)\;Pt #002;;;;;;;;;
;X (X)\µm;52578.6;;;;;;;;;
;Y (Y)\µm;21352.2;;;;;;;;;
Binding Energy (E);;;;Fitted envelope;Fitted Peak sp2;Fitted Peak sp3;Fitted Peak C-O;Fitted Peak C=O;Fitted Peak SiC;Fitted Peak pi-pi;Backgnd.
eV;;Counts / s;;Counts / s;Counts / s;Counts / s;Counts / s;Counts / s;Counts / s;Counts / s;Counts / s
298.080;;2550.09;;2572.33;0.00000;0.00000;0.00000;0.00000;0.00000;0.00000;0.00000
297.880;;2628.75;;2625.62;2590.74;2590.74;2590.74;2590.74;2590.74;2625.62;2590.74
297.680;;2582.31;;2630.89;2590.40;2590.40;2590.40;2590.40;2590.40;2630.89;2590.40
297.480;;2701.69;;2633.85;2589.86;2589.86;2589.86;2589.86;2589.86;2633.85;2589.86
297.280;;2606.61;;2636.96;2589.32;2589.32;2589.32;2589.32;2589.32;2636.96;2589.32
297.080;;2532.94;;2640.55;2588.82;2588.82;2588.82;2588.83;2588.82;2640.54;2588.82
296.880;;2721.52;;2644.53;2588.21;2588.21;2588.21;2588.21;2588.21;2644.53;2588.21
296.680;;2683.84;;2648.92;2587.39;2587.39;2587.39;2587.40;2587.39;2648.91;2587.39
296.480;;2669.33;;2653.95;2586.51;2586.51;2586.51;2586.53;2586.51;2653.93;2586.51
296.280;;2656.57;;2659.74;2585.56;2585.56;2585.56;2585.60;2585.56;2659.70;2585.56
296.080;;2693.77;;2666.41;2584.53;2584.53;2584.53;2584.59;2584.53;2666.35;2584.53
295.880;;2798.32;;2674.07;2583.35;2583.35;2583.35;2583.44;2583.35;2673.98;2583.35
295.680;;2754.36;;2683.01;2582.09;2582.09;2582.09;2582.24;2582.09;2682.86;2582.09
295.480;;2736.50;;2693.53;2580.84;2580.84;2580.84;2581.07;2580.84;2693.30;2580.84
295.280;;2643.45;;2706.11;2579.81;2579.81;2579.81;2580.16;2579.81;2705.76;2579.81
295.080;;2712.70;;2720.94;2578.87;2578.87;2578.87;2579.40;2578.87;2720.42;2578.87
294.880;;2763.12;;2738.13;2577.83;2577.83;2577.83;2578.61;2577.83;2737.35;2577.83
294.680;;2627.33;;2757.95;2576.68;2576.68;2576.69;2577.82;2576.68;2756.80;2576.68
294.480;;2691.66;;2780.70;2575.53;2575.53;2575.54;2577.18;2575.53;2779.05;2575.53
294.280;;2774.92;;2806.27;2574.25;2574.25;2574.26;2576.59;2574.25;2803.92;2574.25
294.080;;2737.15;;2834.39;2572.86;2572.86;2572.90;2576.17;2572.86;2831.05;2572.86
293.880;;2845.39;;2864.04;2571.20;2571.20;2571.27;2575.83;2571.20;2859.34;2571.20
293.680;;2903.00;;2893.60;2569.14;2569.14;2569.28;2575.55;2569.14;2887.04;2569.14
293.480;;2967.98;;2920.93;2566.68;2566.68;2566.97;2575.52;2566.68;2911.81;2566.68
293.280;;3035.63;;2943.55;2563.97;2563.97;2564.51;2576.05;2563.97;2930.91;2563.97
293.080;;2960.84;;2959.14;2561.18;2561.18;2562.15;2577.62;2561.18;2941.73;2561.18
292.880;;2953.88;;2966.33;2558.51;2558.51;2560.16;2580.75;2558.51;2942.44;2558.51
292.680;;2972.14;;2965.09;2555.93;2555.93;2558.60;2585.85;2555.93;2932.50;2555.93
292.480;;2885.40;;2957.13;2553.39;2553.39;2557.52;2593.40;2553.39;2912.99;2553.39
292.280;;2922.13;;2945.56;2550.86;2550.86;2556.96;2604.05;2550.86;2886.27;2550.86
292.080;;2863.87;;2934.14;2548.38;2548.38;2557.03;2618.58;2548.38;2855.29;2548.38
291.880;;2849.30;;2926.50;2545.97;2545.97;2557.75;2637.89;2545.97;2822.81;2545.97
291.680;;2878.24;;2925.57;2543.61;2543.61;2559.04;2662.87;2543.61;2790.88;2543.61
291.480;;3083.12;;2933.14;2540.86;2540.86;2560.40;2694.03;2540.86;2760.43;2540.86
291.280;;2962.74;;2950.87;2537.91;2537.91;2561.91;2732.45;2537.91;2732.34;2537.91
291.080;;3054.29;;2979.69;2534.86;2534.86;2563.55;2778.91;2534.86;2706.94;2534.86
290.880;;3009.32;;3020.10;2531.90;2531.90;2565.44;2834.07;2531.90;2684.39;2531.90
290.680;;3133.33;;3071.61;2528.75;2528.75;2567.25;2897.66;2528.75;2664.20;2528.75
290.480;;3118.98;;3133.29;2525.22;2525.22;2568.83;2969.00;2525.22;2645.89;2525.22
290.280;;3198.97;;3203.86;2521.33;2521.33;2570.29;3047.02;2521.33;2629.21;2521.33
290.080;;3203.38;;3281.59;2517.24;2517.24;2571.94;3130.09;2517.24;2614.04;2517.24
289.880;;3353.24;;3363.58;2512.56;2512.56;2573.59;3215.36;2512.56;2599.75;2512.56
289.680;;3421.75;;3446.86;2507.30;2507.30;2575.52;3299.81;2507.30;2586.12;2507.30
289.480;;3619.09;;3528.06;2501.41;2501.41;2578.04;3379.92;2501.41;2572.93;2501.41
289.280;;3558.74;;3603.94;2495.10;2495.11;2581.78;3452.13;2495.10;2560.22;2495.10
289.080;;3685.87;;3671.22;2488.30;2488.33;2587.28;3512.70;2488.30;2547.79;2488.30
288.880;;3752.59;;3727.49;2481.13;2481.29;2595.57;3558.35;2481.13;2535.66;2481.13
288.680;;3840.39;;3771.26;2473.48;2474.08;2607.79;3586.21;2473.48;2523.62;2473.48
288.480;;3721.93;;3803.27;2465.70;2467.57;2626.19;3594.68;2465.70;2511.93;2465.70
288.280;;3765.79;;3826.36;2457.85;2462.81;2653.55;3582.94;2457.85;2500.59;2457.85
288.080;;3822.29;;3845.85;2449.84;2461.12;2693.66;3551.12;2449.84;2489.46;2449.84
287.880;;3848.81;;3869.64;2441.74;2463.91;2751.78;3500.60;2441.74;2478.56;2441.74
287.680;;3870.91;;3907.19;2433.61;2471.86;2834.55;3433.69;2433.61;2467.91;2433.61
287.480;;3958.17;;3968.38;2425.18;2484.25;2949.26;3353.19;2425.20;2457.20;2425.18
287.280;;4135.26;;4063.18;2415.95;2499.69;3103.03;3262.12;2416.23;2445.91;2415.95
287.080;;4211.19;;4202.57;2405.93;2518.20;3301.89;3164.25;2407.95;2434.01;2405.93
286.880;;4511.25;;4396.81;2395.06;2542.18;3547.90;3063.17;2402.36;2421.43;2395.06
286.680;;4672.33;;4650.22;2383.13;2578.13;3836.61;2962.04;2398.01;2407.94;2383.13
286.480;;5002.95;;4962.87;2369.58;2639.86;4154.79;2863.10;2390.48;2392.96;2369.58
286.280;;5265.44;;5344.32;2354.21;2756.66;4480.51;2768.34;2379.36;2376.28;2354.21
286.080;;5843.37;;5824.17;2336.54;2984.06;4783.99;2678.81;2366.02;2357.39;2336.53
285.880;;6481.26;;6459.64;2316.06;3410.32;5031.55;2594.72;2350.81;2335.64;2315.89
285.680;;7347.14;;7321.27;2293.18;4134.69;5190.88;2515.16;2333.10;2309.84;2291.12
285.480;;8371.29;;8438.57;2279.69;5196.16;5237.76;2438.72;2312.47;2278.78;2261.00
285.280;;9698.63;;9750.23;2346.70;6470.42;5160.93;2363.63;2288.93;2241.21;2224.32
285.080;;10969.0;;11198.2;2760.03;7626.21;4964.94;2288.40;2264.00;2196.45;2180.37
284.880;;12997.5;;12973.6;4112.61;8237.47;4667.37;2210.36;2240.09;2142.71;2127.40
284.680;;15417.6;;15413.8;6978.59;8027.70;4295.00;2126.14;2223.67;2077.58;2062.97
284.480;;17950.3;;18061.5;10784.9;7057.17;3879.07;2032.97;2234.46;1999.20;1985.25
284.280;;19034.1;;19113.4;13285.1;5683.30;3453.36;1932.82;2333.61;1910.34;1897.01
284.080;;17340.4;;17128.3;12461.8;4330.97;3051.45;1834.14;2666.89;1820.18;1807.42
283.880;;13013.1;;13134.9;8935.91;3276.13;2702.17;1749.58;3377.97;1741.97;1729.76
283.680;;9369.13;;9362.49;5194.97;2582.47;2419.66;1686.02;4153.27;1683.11;1671.40
283.480;;6659.96;;6575.00;2877.41;2177.21;2202.99;1642.51;4190.81;1643.01;1631.79
283.280;;4537.95;;4516.57;1924.87;1954.17;2042.68;1614.32;3395.73;1617.27;1606.50
283.080;;3191.95;;3197.11;1650.34;1831.34;1927.39;1597.16;2546.50;1601.85;1591.49
282.880;;2537.98;;2524.57;1590.73;1759.22;1845.47;1586.93;2063.71;1592.82;1582.86
282.680;;2179.61;;2203.35;1578.52;1711.85;1787.13;1580.66;1846.64;1587.33;1577.75
282.480;;2031.42;;2028.89;1574.53;1676.39;1745.02;1576.53;1745.11;1583.70;1574.48
282.280;;1942.99;;1917.47;1572.07;1646.91;1713.90;1573.49;1690.47;1580.95;1572.06
282.080;;1859.11;;1838.59;1570.19;1621.61;1690.39;1571.17;1657.42;1578.76;1570.19
281.880;;1807.44;;1780.30;1568.68;1600.82;1672.19;1569.36;1635.72;1576.95;1568.68
281.680;;1692.45;;1737.28;1567.52;1585.37;1657.83;1567.97;1620.70;1575.51;1567.52
281.480;;1663.72;;1706.13;1566.61;1575.26;1646.23;1566.91;1609.85;1574.32;1566.61
281.280;;1684.44;;1683.68;1565.81;1569.42;1636.56;1566.01;1601.67;1573.26;1565.81
281.080;;1694.99;;1667.14;1565.08;1566.37;1628.29;1565.20;1595.31;1572.29;1565.08
280.880;;1660.99;;1654.26;1564.42;1564.81;1621.05;1564.50;1590.19;1571.40;1564.42
280.680;;1652.29;;1643.11;1563.87;1563.97;1614.61;1563.92;1585.48;1570.63;1563.87
280.480;;1637.36;;1631.23;1563.41;1563.43;1608.68;1563.44;1579.36;1569.95;1563.41
280.280;;1605.57;;1617.92;1563.05;1563.06;1603.16;1563.07;1571.45;1569.39;1563.05
280.080;;1580.89;;1606.65;1562.84;1562.84;1597.94;1562.85;1565.40;1568.98;1562.84
279.880;;1560.06;;1599.36;1562.78;1562.78;1593.00;1562.79;1563.17;1568.74;1562.78
279.680;;1650.46;;1593.94;1562.65;1562.65;1588.12;1562.66;1562.68;1568.44;1562.65
279.480;;1620.85;;1588.93;1562.42;1562.42;1583.35;1562.42;1562.42;1568.00;1562.42
279.280;;1532.85;;1583.98;1562.29;1562.29;1578.98;1562.29;1562.29;1567.28;1562.29
279.080;;1612.46;;1628.61;0.00000;0.00000;0.00000;0.00000;0.00000;0.00000;0.00000